Folder: ISP_NYU23/Assignment_1/A1_part2

Note: README.md
# ISP_NYU23
Information Security and Privacy course work Fall 2023

File: guesses.txt
!!!!!!!!!!!!!!!!!!!!
!!!234what
!!11loverbea
!!96321a
!!mrsj!!
!!reality
!$#lori2008
!&quot;blu!&quot;
!(20theta851@%
!1085110851!
!1976jared!
!1YodaCloe2@
!1qazxsw2
!1wizards
!4KaileE7!
!571mojo
!@#$%
!@#$%^&amp;*as12
!@#bob123marley
!@je1234sus!!
!@qwas
!Darlyn89
!ExtrA$
!QAZ2wsx
!QAZxsw2
!Sw0vtRbBbF
!belly!
!c3hammer
!charney33
!cunt4$
!easy2345
!eileen!
!h3llf1r3
!hack
!iloveing
!iz@rd
!lexmark16
!matchbox22
!mike!
!moneyMAKer!
!mt_7genius
!mystories**
!n^IsI813
!nimloth
!promoce2006
!q@w3e4r
!qaz1QAZ
!sarock1!
!suGarp0ps
!tm3boyz!
!track720
!wdxas01!
!westpalm
!wiki2!
!write4monet
!zztop869!
#!9746121
#!eds19421
#!pmhffx61
##flash123
#$%@sion124
#$sage
#00017
#09265
#1-firstborn
#12open
#1Caramel
#1ED7325
#1Stunner
#1abba
#1angel34
#1burdine
#1charles
#1cheater
#1daddy
#1dream
#1eminem
#1g8tcher
#1godschild
#1homie
#1housekeeper
#1m0rron
#1manz
#1meech
#1model
#1mommy
#1mountain
#1nurse
#1pimp
#1playboy
#1star
#1system
#1writer
#317HDRwk!
#4150$
#42tlemonpie
#85@*ox#end#
#8balz88
#9#
#FEMNIK1
#Green3Grass#
#^$$@*&amp;#*
#akd@54*PBR
#austin1#
#herass4me
#jen05deb40
#linda$
#map22552
#mydreams#
#passer745
#silsilay#
#tubesteak
#twildad$1178#
#zxopas13
$$$$
$$$making
$$$money
$$MONEY$$315
$$ballout
$$beginnings
$$faithful12
$$gannubhia$$
$$quasar53
$085yes$
$10cranes$
$1stunna
$2taylor
$44kids
$4badgirl
$=d3ath
$@abadasa
$@nd10t
$@rk@r
$ACAssociate
$Cleopatra20
$Hackle5
$Hoznail
$IMTHATBYTCH
$Mealcook49
$Mr123?
$authoramova13
$axlotl$
$cando2008
$che&amp;me
$coreS1BgM0rsl4me
$cornor$
$daniel$
$donnovello_55
$drunkencoyote45
$e1*5w^%i_q4
$elena
$emperorj$
$es%rd6tf
$flowers1
$goddess00
$gs1905
$hae3470
$hizlep;
$holygrail$
$ilvertree
$jan0277
$m0key123
$m4869
$mini$
$mother$
$mouser1975
$n0wball
$oubhagya
$pacegirl1
$pericles05
$prvts
$r87*CQG&gt;36rkM
$rixel$
$sahebsona157$
$scrib67$
$tart4word
$tileman
$u1c1dalsw3d3
$ulabh$$
$uper$avings
$uperman
$yarg
$ynop5i5
%!1v3rB0w
%&amp;Q0g1vM
%25password
%3@wny75
%aN6t2LE
%m33vz
&#039;vijaykavi88&#039;
&amp;&amp;#233;&quot;&#039;
&amp;^9)33*225t
&amp;only14n8n
&amp;weetkad1
&amp;wild06cat
&lt;3=lonelyhunter
&lt;3my2boyz
&lt;3nevaends
&lt;INDIRECTrevival&gt;
&lt;gale&gt;50yrs
&lt;gbvbob950
&lt;than0
&quot;ilovedesi4&#039;
&quot;kenn&quot;
&quot;oldschool&quot;
(8886810sparkle
(H)ardcore99
(h3lly07
(my)account
(nnas)
(poikal)
(smothers)
(x@nd3r)
(ziman03**)
)okm0okm
******
*******
**apex**
**asd**
**bluestar**
**isurfhb**
**mite786
**ruff**
**smle
**z69**
*03204415643*
*07wookie
*1111111111
*1123581321*
*121981*
*2006_AC
*4CeCe914t$
*9Gou9ki9*
*Ethan913*
*ExcelsiorE
*F5a$Dc#_Lk8
*Joy4Me!!*
*MaryamShahrukh*
*MissPretty*
*Songbird03!
*Yulia*V
*acsh01bb
*biko24334373
*catz*
*cbattle*
*dakota05
*dakota5
*dunefrank
*jehovahg7
*kakashi011
*kclmnop
*lici16*
*liebling*
*loralei*
*lovehope
*n3Drah&amp;42E5
*nanski10
*newcareer08
*o1curmt!
*se05le
*shalle*
*shine1984
*slk4*1ads*
*smokey0919*
*solarstone6
*sophia*
*topgun35*
*u7y6t5r4
*umbrella36
*uz/86oa
*varg13
*w*8*4*6
*willow!
*write*
+266492rtba
+dentistra+
+yedlur1938
,.1234jrkk
,donovan/
,ghx,ln,ughx
,ilrdj
,u#0d5svpv
--nihongo41--
-1duckiz2sad
-RIATIahmed_
-SFluvsGD_
-football-
-moppie01-
-nikkilee
-plmnb
.
......
...rome
./AC!!!
.254163#
.Gladidag!
.adgjmptw
.admjgptw
.bulls
.daniela
.haines56
.haylee28
.joelky.
.karlo.
.m.m.m.m
.moses112
.public
/&#039;][;.
/9801594
/akira1\
/inco/
/onthier
0
0%wife2008
0-2x@L
0.123457/*-+
00)Oneida
0000
00000
000000
0000000
00000000
00000000a
00000001
00000009
0000000p
0000007
0000007j
000000S
000000wy
000001
000007
00000726
0000099999
00001111v
000015
000017
000019
00001966
00001997
000023
00003066
000032
00003955
000043
000046
000054
00007519
00009993
0000dogg
0000kibet
00010001000
000111
000120
000123456
000141228
000143bb
000173
000187
0001kv37m
000206
00026
000275
000282
000300
000315
000333
00033300
000335
00034931
000408a
000416
000420
000428
0004987
000530
000550
000555
000619
0007
000756
000777
00080008
000910
000933
000999
000imonfire
000naren000
000ptp
000v51
001001
0010195105
001032077
00110082
001111
001133
00114477885522
001147
001155
001177
0012
001212
00123
0012345
00128586
0013
0013476840663
001401
0014415319
001462
001492
001502
00151543
001577
0016
00162badguy!!
001672
001717
00178740
001907
001911
00193400sunset22
00196814
001974
001976
001981
001987
001crazyluv
001spy1
001zv3x5
00200549
00203200
0020437
002048
002115
002129
002264
0022tr
00230056m
00230230
002413700
002444
002463ljt
002490
0025234
00258
002586
002594
0026
002655
00272132
003018
003100
003106
003164
0032510103909080
0032matrix
003366
0034afff
0035JJ
0036
00400040
004103
00411411
004159
00441166
004439
004483
0046
004676
00469aze
004762
00490672d
004941
004tick4
0051374
0051688
0052126802
00530225
005344
0055121
005525
00587508
005ppp89
006007008009
006025
006092
0060pjm
006162
006165
006197
0061mako
006276
0063
006330nch
006454
0069audi
006agent
007
007&amp;008
007007
007007007
007008
0070987
007118
00713224
007288
0073735963
007411
007431
0074ever
007520
007579
007666
0077
007700
007794
007Coolbean
007Zebra
007conquest
007hpfighterjets
007jes
007lrfvl
007lucy
007max
007ndocadc
007pnr
007rabbit
007roc007
007woac
007zulufoxlema
008057
00831aSs
00870087
00870211
00870700
008797
00888072
0089158
008959
008977
008spy
008tango
0090876a
0091053
009218
009218phtar
009276x2
009291
009339
00960096
009852
00987
00990099
00991155
009934525612
009988
009991
00berc00l
00blew00
00busted
00cbrhawk
00chna11
00cmb97
00dance
00dietcoke
00dogss
00gb666777
00jemby
00kender
00luvsux
00msdo4185
00pemo
00run0
00silvato
00singerz
00smith
00sv00sv
00unix00
00zero
01001042
010098640
010100
0101005535
010101
010104
01010428
01010f
0101122306
01011962
01011980
01011988
010142
010188
010199ms
0101nemesis
01020102
010203
0102030405
01021970pancho
01022001
010273
010274
0102tif
010306
01031982
010338
010350
010382
010388
010390dr
0103939484
010398
010405
01041961
01041968
01041988
010451
010461
010473
010480
010501
01051984
01052004
0105675062
0105725901
010585
0105ridebike
010600
010605
0106221106
010658
0106742
010677
010680
010689
010689j
0106997581
0107
010701
01071983
0107625
010763
010778
01078420
0107882388
010797
010798
01080507
01080611
010808baby
01081980
01081985
0108344788
0108478
01086352
010873
010874
010879
0108861
0108love
01091978
01092002
01092005
0109770Up
010979
010982
010989
01100110
0110023
01101944
01101962
01101988
011076
0110894
0110dada
011103
01111603
01111954
01112
011151
011181
011182
011190
01121981
01121982
01122001
011235813
011279eyad
011279jfpg
011284
011289
011298
01131926
01131996
011356
011358
011369
011372
01138111
011390
011398
011401
011406920
01141110
011414
01144141BEA5001
011456
011476
011477
01148012
01149dave
01151974
01151978
01151983
01152002
011569
011594
01159638774
0115ct
0116
011600
011606
011607
011682
01169
011749st
01176519
011766
011789
011797
0117melh
01182002
01182005
011834okna
011872
011879
011891
011902
01191951
01191952
01191979
01191985
01191990
011954
011955
011978
011981
0120
012000
012001
012012374
01201975
012046
012060
012063
012075ct
012078
012086
012092
0121
012104
01212623009
012134
0121355685
012162
012178
012179
012180
012201
012210
01221968
012270
012275
012276
012299jc
012300cm
0123095649
01234186
012345
0123456
01234567
0123456789
0123456789ke
012356
012361
012364a
0123670747
012368
012381
012382
01238200
0123spd
0124130583
012452
[...]
zimmer
zimmermann
zimmyzimm
zimzim
zinc30
zing
zing4u
zinger
zinho1
zinhom
zinkoman1
zinkpro
zinn36
zinnia250
zinnia64
zinnia73
zinobia
ziolek2
zion
zion007
zion07
zion102401
zion2008
zionariel
zionbound
zionmyson91
zip46
zip80812
zip85027
zip88pity
zipdisk
zipisco
ziplee
ziplock
zipocoffietiny
zippej
zipper
zipperhead59
zippo233
zippo9207
zipporah
zipporah1
zipporah99
zippos2
zippy1
zippy111
zippy2zing
zippy77
zippyx55
zipthepin
zipzap4
zirana12
zirete
zirkazog
zisser
ziting
zito18
zivile123
zivszivs1
ziwosxnp
zixa367
ziyal1
zizipus
zizou
zjataa01
zjdand&amp;cmd2!
zjh123456789
zjk121
zjp9198
zjqwy2
zkitty
zlochower
zlover06
zm2003
zm651944
zman
zman86
zmhxpq
zmi042
zmna96
zmnamnqmn
zmnrclvy
zmorpflop3
zmprre
zmrk88
zmw4aE7dnp
zmz100
znetcrow
znjofra
znook123
zobear
zobquw
zocalo
zodiac
zodiac12
zodiac67
zoe1white
zoe2175
zoe42005
zoe635
zoeanise29
zoeaoife
zoebaby
zoebowie
zoeboy7
zoecat
zoegirl
zoeley
zoelle17
zoeluiz
zoemccusker
zoepound6
zoerosie
zoes5babu
zoesmom
zoesmommy
zoester
zoey
zoey0627
zoey1
zoey11
zoey123
zoey14
zoey21
zoey2me
zoeyg1rl
zoeyjane
zoeylane
zoeymax
zoeymax08
zoeyzaynahm0m
zoezoe01
zofo2112
zoie525
zoieaaron
zoinks
zol9trix
zolli
zollinger
zolo1987
zoloft
zoltrix123
zoluae00
zom108134
zombie
zombie00
zombie1
zombie13
zombie77
zombies
zombified0
zomgzors
zomzom
zonder
zone19
zone5rocks
zoners
zong9712
zonker
zonplug817
zonte
zoo123
zoo384
zoo4227
zooba1
zoobaby
zoobie
zoobop
zooeyglass
zooeyiscute
zookeeper
zookie
zoolander
zooluu
zoom.zoom
zoom314153
zoom42
zoom59
zoom98
zoomac1
zoomag
zoomboway
zoomer23179
zoomoo
zoomrn1
zoomzime4me
zoomzoom
zoon881
zoondweebe
zoons
zoonser129
zoote1
zoote123
zootsuit
zoovan
zooziepoozie
zoozoo
zope1214
zophar
zoplat
zora
zora22
zorach
zorahmarie
zorba
zorch
zorch3d
zorgly
zoria7
zorito103
zorkno
zorlac20
zormaz92764
zoro00
zoro1111
zorro
zorro07
zorro123
zorro1523
zorro711
zorrococo
zorrofox
zorros
zoso13
zote2006
zotlor24
zots22
zotyki
zoutia
zouzou1990
zowf7ouJ
zoya123
zoyezoye
zozu
zpainter
zpakqm12
zpc666
zpteyhx7
zq7045jf
zqikznp9
zqm123456
zqnqz23609
zqp9nbv
zqpm1029
zqw6q8S8
zr327cat
zrRD5S2n
zrmmpq22yr
zrmzrm
zrog
zrx1100
zs1234
zs9s7rvr
zsW6h8S2
zsandar
zsazsa
zserfv
zsfmecrose
zshade3
zsm7013391
zsofia
zssa1234
zsuscha
zsuzsika
zszszs
zta244
ztack21k
ztexpress90
ztjkx030
ztown4q
ztr16617
ztx86b
zu1lp12
zubairy
zubazuba
zubek99
zuber82
zubin
zucchini
zudanax
zudzer
zue866
zues22
zuesisgod9
zuess2
zugmxe32
zugspitz
zugzug
zuidema
zuidholland
zuki411
zukina
zulatina
zulema
zulemita
zuleyka14
zulkef97
zullinamy
zulqarni
zultan
zulu1300
zulu16
zuma10
zuma1142
zummki123
zumzum
zungha
zuni00
zunsweier08
zurczurc
zurich
zurie1
zuriel
zuriel2007
zuriga
zurk1234
zurriola
zuvihuju
zuzu02
zuzu1959
zuzu69
zuzuking
zuzuwrites
zuzuzu3
zvbxrpl4thx
zvezda
zvgkwwdz
zvgt63zv
zvornik
zw99618501
zwater
zwct11791
zweebo
zwei89
zwonka
zwqzwqzwqzwq
zwx329
zx1018mk
zx10rrrrr
zx1200rx
zx249j
zx311x
zxasqw12
zxasqw1234
zxc123
zxc123vbn
zxc321dc
zxc90623
zxcasd123
zxcdsa
zxcdsaqwe
zxcjin
zxckjc
zxcqwe123
zxcv12
zxcv123!
zxcv17ssao
zxcvasdfqwer5
zxcvb12
zxcvb321
zxcvbn
zxcvbn1
zxcvbnm
zxcvbnm,
zxcvbnm12
zxcvbnm?
zxcvbnml
zxcvcxz
zxcvvcxz
zxcvzxcv
zxczxck
zxdvcmg
zxkrjrb
zxorb452
zxzxzx
zxzxzxzx
zyJ4XYT4
zyairs123
zybercatz
zybss477
zycflex6
zydeco83
zydecodancer
zygoat
zygote
zyhtna
zyiona
zylan24
zymmix9
zymmks
zynk
zyshonn5
zyupk63
zyzYGY1
zyzyk~2009
zz012580
zz0346
zz1024
zz1214zz
zz1310zz
zz1968ab
zz45ck381
zzappp
zzbell0506
zzdottia0007
zzen1220
zzgrizzman
zziemele
zziggy2
zzoeen0Z
zzub52
zzxcvbnmm12
zzxx1212
zzxxccvv
zzyzxx
zzz0998
zzz111
zzzzz
zzzzzz
zzzzzzzz
~TWEETY
~Water-Shed+67892|
~compas~
~crank~
~dreamworks12
~writerchic101~
~~~lorna100568

File: guesses_test.txt
!!!!!!!!!!!!!!!!!!!!
!!!234what
!!11loverbea
!!96321a
!!mrsj!!
!!reality
!$#lori2008
!&quot;blu!&quot;
!(20theta851@%
!1085110851!
!1976jared!
!1YodaCloe2@
!1qazxsw2
!1wizards
!4KaileE7!
!571mojo
!@#$%
!@#$%^&amp;*as12
!@#bob123marley
!@je1234sus!!
!@qwas
!Darlyn89
!ExtrA$
!QAZ2wsx
!QAZxsw2
!Sw0vtRbBbF
!belly!
!c3hammer
!charney33
!cunt4$
!easy2345
!eileen!
!h3llf1r3
!hack
!iloveing
!iz@rd
!lexmark16
!matchbox22
!mike!
!moneyMAKer!
!mt_7genius
!mystories**
!n^IsI813
!nimloth
!promoce2006
!q@w3e4r
!qaz1QAZ
!sarock1!
!suGarp0ps
!tm3boyz!
!track720
!wdxas01!
!westpalm
!wiki2!
!write4monet
!zztop869!
#!9746121
#!eds19421
#!pmhffx61
##flash123
#$%@sion124
#$sage
#00017
#09265
#1-firstborn
#12open
#1Caramel
#1ED7325
#1Stunner
#1abba
#1angel34
#1burdine
#1charles
#1cheater
#1daddy
#1dream
#1eminem
#1g8tcher
#1godschild
#1homie
#1housekeeper
#1m0rron
#1manz
#1meech
#1model
#1mommy
#1mountain
#1nurse
#1pimp
#1playboy
#1star
#1system
#1writer
#317HDRwk!
#4150$
#42tlemonpie
#85@*ox#end#
#8balz88
#9#
#FEMNIK1
#Green3Grass#
#^$$@*&amp;#*
#akd@54*PBR
#austin1#
#herass4me
#jen05deb40
#linda$
#map22552
#mydreams#
#passer745
#silsilay#
#tubesteak
#twildad$1178#
#zxopas13
$$$$
$$$making
$$$money
$$MONEY$$315
$$ballout
$$beginnings
$$faithful12
$$gannubhia$$
$$quasar53
$085yes$
$10cranes$
$1stunna
$2taylor
$44kids
$4badgirl
$=d3ath
$@abadasa
$@nd10t
$@rk@r
$ACAssociate
$Cleopatra20
$Hackle5
$Hoznail
$IMTHATBYTCH
$Mealcook49
$Mr123?
$authoramova13
$axlotl$
$cando2008
$che&amp;me
$coreS1BgM0rsl4me
$cornor$
$daniel$
$donnovello_55
$drunkencoyote45
$e1*5w^%i_q4
$elena
$emperorj$
$es%rd6tf
$flowers1
$goddess00
$gs1905
$hae3470
$hizlep;
$holygrail$
$ilvertree
$jan0277
$m0key123
$m4869
$mini$
$mother$
$mouser1975
$n0wball
$oubhagya
$pacegirl1
$pericles05
$prvts
$r87*CQG&gt;36rkM
$rixel$
$sahebsona157$
$scrib67$
$tart4word
$tileman
$u1c1dalsw3d3
$ulabh$$
$uper$avings
$uperman
$yarg
$ynop5i5
%!1v3rB0w
%&amp;Q0g1vM
%25password
%3@wny75
%aN6t2LE
%m33vz
&#039;vijaykavi88&#039;
&amp;&amp;#233;&quot;&#039;
&amp;^9)33*225t
&amp;only14n8n
&amp;weetkad1
&amp;wild06cat
&lt;3=lonelyhunter
&lt;3my2boyz
&lt;3nevaends
&lt;INDIRECTrevival&gt;
&lt;gale&gt;50yrs
&lt;gbvbob950
&lt;than0
&quot;ilovedesi4&#039;
&quot;kenn&quot;
&quot;oldschool&quot;
(8886810sparkle
(H)ardcore99
(h3lly07
(my)account
(nnas)
(poikal)
(smothers)
(x@nd3r)
(ziman03**)
)okm0okm
******
*******
**apex**
**asd**
**bluestar**
**isurfhb**
**mite786
**ruff**
**smle
**z69**
*03204415643*
*07wookie
*1111111111
*1123581321*
*121981*
*2006_AC
*4CeCe914t$
*9Gou9ki9*
*Ethan913*
*ExcelsiorE
*F5a$Dc#_Lk8
*Joy4Me!!*
*MaryamShahrukh*
*MissPretty*
*Songbird03!
*Yulia*V
*acsh01bb
*biko24334373
*catz*
*cbattle*
*dakota05
*dakota5
*dunefrank
*jehovahg7
*kakashi011
*kclmnop
*lici16*
*liebling*
*loralei*
*lovehope
*n3Drah&amp;42E5
*nanski10
*newcareer08
*o1curmt!
*se05le
*shalle*
*shine1984
*slk4*1ads*
*smokey0919*
*solarstone6
*sophia*
*topgun35*
*u7y6t5r4
*umbrella36
*uz/86oa
*varg13
*w*8*4*6
*willow!
*write*
+266492rtba
+dentistra+
+yedlur1938
,.1234jrkk
,donovan/
,ghx,ln,ughx
,ilrdj
,u#0d5svpv
--nihongo41--
-1duckiz2sad
-RIATIahmed_
-SFluvsGD_
-football-
-moppie01-
-nikkilee
-plmnb
.
......
...rome
./AC!!!
.254163#
.Gladidag!
.adgjmptw
.admjgptw
.bulls
.daniela
.haines56
.haylee28
.joelky.
.karlo.
.m.m.m.m
.moses112
.public
/&#039;][;.
/9801594
/akira1\
/inco/
/onthier
0
0%wife2008
0-2x@L
0.123457/*-+
00)Oneida
0000
00000
000000
0000000
00000000
00000000a
00000001
00000009
0000000p
0000007
0000007j
000000S
000000wy
000001
000007
00000726
0000099999
00001111v
000015
000017
000019
00001966
00001997
000023
00003066
000032
00003955
000043
000046
000054
00007519
00009993
0000dogg
0000kibet
00010001000
000111
000120
000123456
000141228
000143bb
000173
000187
0001kv37m
000206
00026
000275
000282
000300
000315
000333
00033300
000335
00034931
000408a
000416
000420
000428
0004987
000530
000550
000555
000619
0007
000756
000777
00080008
000910
000933
000999
000imonfire
000naren000
000ptp
000v51
001001
0010195105
001032077
00110082
001111
001133
00114477885522
001147
001155
001177
0012
001212
00123
0012345
00128586
0013
0013476840663
001401
0014415319
001462
001492
001502
00151543
001577
0016
00162badguy!!
001672
001717
00178740
001907
001911
00193400sunset22
00196814
001974
001976
001981
001987
001crazyluv
001spy1
001zv3x5
00200549
00203200
0020437
002048
002115
002129
002264
0022tr
00230056m
00230230
002413700
002444
002463ljt
002490
0025234
00258
002586
002594
0026
002655
00272132
003018
003100
003106
003164
0032510103909080
0032matrix
003366
0034afff
0035JJ
0036
00400040
004103
00411411
004159
00441166
004439
004483
0046
004676
00469aze
004762
00490672d
004941
004tick4
0051374
0051688
0052126802
00530225
005344
0055121
005525
00587508
005ppp89
006007008009
006025
006092
0060pjm
006162
006165
006197
0061mako
006276
0063
006330nch
006454
0069audi
006agent
007
007&amp;008
007007
007007007
007008
0070987
007118
00713224
007288
0073735963
007411
007431
0074ever
007520
007579
007666
0077
007700
007794
007Coolbean
007Zebra
007conquest
007hpfighterjets
007jes
007lrfvl
007lucy
007max
007ndocadc
007pnr
007rabbit
007roc007
007woac
007zulufoxlema
008057
00831aSs
00870087
00870211
00870700
008797
00888072
0089158
008959
008977
008spy
008tango
0090876a
0091053
009218
009218phtar
009276x2
009291
009339
00960096
009852
00987
00990099
00991155
009934525612
009988
009991
00berc00l
00blew00
00busted
00cbrhawk
00chna11
00cmb97
00dance
00dietcoke
00dogss
00gb666777
00jemby
00kender
00luvsux
00msdo4185
00pemo
00run0
00silvato
00singerz
00smith
00sv00sv
00unix00
00zero
01001042
010098640
010100
0101005535
010101
010104
01010428
01010f
0101122306
01011962
01011980
01011988
010142
010188
010199ms
0101nemesis
01020102
010203
0102030405
01021970pancho
01022001
010273
010274
0102tif
010306
01031982
010338
010350
010382
010388
010390dr
0103939484
010398
010405
01041961
01041968
01041988
010451
010461
010473
010480
010501
01051984
01052004
0105675062
0105725901
010585
0105ridebike
010600
010605
0106221106
010658
0106742
010677
010680
010689
010689j
0106997581
0107
010701
01071983
0107625
010763
010778
01078420
0107882388
010797
010798
01080507
01080611
010808baby
01081980
01081985
0108344788
0108478
01086352
010873
010874
010879
0108861
0108love
01091978
01092002
01092005
0109770Up
010979
010982
010989
01100110
0110023
01101944
01101962
01101988
011076
0110894
0110dada
011103
01111603
01111954
01112
011151
011181
011182
011190
01121981
01121982
01122001
011235813
011279eyad
011279jfpg
011284
011289
011298
01131926
01131996
011356
011358
011369
011372
01138111
011390
011398
011401
011406920
01141110
011414
01144141BEA5001
011456
011476
011477
01148012
01149dave
01151974
01151978
01151983
01152002
011569
011594
01159638774
0115ct
0116
011600
011606
011607
011682
01169
011749st
01176519
011766
011789
011797
0117melh
01182002
01182005
011834okna
011872
011879
011891
011902
01191951
01191952
01191979
01191985
01191990
011954
011955
011978
011981
0120
012000
012001
012012374
01201975
012046
012060
012063
012075ct
012078
012086
012092
0121
012104
01212623009
012134
0121355685
012162
012178
012179
012180
012201
012210
01221968
012270
012275
012276
012299jc
012300cm
0123095649
01234186
012345
0123456
01234567
0123456789
0123456789ke
012356
012361
012364a
0123670747
012368
012381
012382
01238200
0123spd
0124130583
012452
[...]
123skin
123stare
123steve
123stupid123
123subramanya
123successful123
123sukhwal
123sunny
123surf
123tee
123testist123
123tgs
123tomik
123tool
123victor
123warrior
123weakstuff
123wer456
123what
123win
123x123
123xxx
123xyz
123zab
123zaulek
123zxabc11
123zxc
123zzz
124057
124124
1241989
124289363
1242media
12431243
1243apr!50108
1243xxx
1244412h
1245
1245142
124555
1245689o
12457836987
1245ann
1245sf
12460m
124653
12481632
12481632beth
12487abd
124912
124917
124c41
125099
12511251
1251987
125200
125353
1254
125416
125422
12544
125544
12561256
125634
125678qwer
125698
125773res
125800
125843
125941
1259ca
125atb9
125ewr
125near
125osage
125prince
126060
12607
12613409
1261974
1261992
1264
126563262
126636
126683
126700
126800
126912
126977gg
126ace837
1270083
127046
12710127
1271marion
1272727
127310
127355
127398
127426
127600
127611aa
1276219rzp
12777
12785kLoT
127863
127888
128002
12807334
128080
1280jsm
12811111
128137
12816960
1281971
1281977
1281981
1281988
1281est3
128231974
128241
128446
1284yr36
128512
12854303
1286
128645
128717
1287baba
1288700
128988
128bob
1290zxnm
1291986
1291mamama
1292
1295lj
129600
12963
129639
1296dcshoes
12972499
1297644
12978
1297kri$hna
12981298
12989e
129azgtanen
129jak
12@v40pv
12FREDDY4U
12Juni81
12Marcusand
12QWASzx
12Stockton
12Tuxedo
12_11_91
12a34s
12ab34cd
12ac34
12adrock12
12ajm78
12and12
12apple30
12aqjqap
12ass4
12associated
12ath34
12b69a
12barblues
12beauty
12benti78
12bernie12
12bhappy
12brett28
12bri802616
12cady34
12camden
12car34draw
12carla20
12chachacha
12chair3
12chicks
12cwqdmB
12december
12delaney
12dozenn
12eastrivers
12edu254
12feb2003
12fina20
12fishermen
12fith83
12forlife
12ftdavis
12g@uge
12gables
12gage
12gages
12garage
12gauge
12gennaio
12goody
12gtshtdn
12harvest
12hp4alex17
12iloveyou
12ionr4
12is3med
12january
12jazz
12jj12jj
12jln2a4d
12joebet
12jyc34
12ka4by6
12katewill
12kids
12km76
12knight
12legion
12lincoln
12liveby
12long
12louter
12love
12many
12mawar
12mdam01
12meechy
12midnight
12milnow
12milo
12monkeys
12mother1953
12mountain
12mozart
12nacy
12nayners
12nina
12nizuts
12nst5
12oclock
12of2k7
12open
12pack
12pain
12paju
12parrots
12pass12
12pat5
12peters
12phyllis
12qazx
12qw3e4r
12qwas
12qwaszx
12qwe12
12qweasd
12rocky3
12roses
12rule
12self
12shae13
12shannon34
12shilo12
12shoe34
12sl0c0mb3
12snooks34
12spruce
12ste456ph
12stepper
12stones
12strikes
12string
12sweetcheeks
12tennismaster
12thirty7
12three
12toz21
12tribes
12watler34
12write
12x34x
12xcw6jp
12zebras
130000
130012
1300211v
1300pez
1301998345
1301dmm
130204
13022
1302ofr
13030h
13032002
1304
130405justin
130476
130490
1304ac!
13051975
13061982
130687
13068mm
1306979
130824
130891
1308914
1308is
1309
130903
130987
130988
130990
130door
131
131000
1310012
13101974
13101986
13105423
131061
131079
1310gardena
131152
131188
1312000
1313
131313
13131313
131322
131358
1313help
1313mock
1313pepe
1313q
1313texas
1314
131415
1314nj
13151719
131588
1316
131618
131619
131622
131654
131713
13171317
1317bk
1318
131816
13191
131954
131962
131969
131979
131981010516
131986
131990
1319Jac6944
131aelr
13201320
132103
13211123
132132
13221721
1322westfifth
1323
132398
132435
13245768
13247634
1324781mma
1324dsta
132511
132527
132585
1325tsoul
13261326
132654
132672yhvh
132722
132789
1327tk
13299023
132ggn00b
1330
13311331
133131
133133
1331hh
1331n41
1331ozzie
1331rk
1332976
13335141
133400
1334321
133505
133539
13362804
13363613
1336market
1337
1337h4xor
1337haXX0r
133816
133936
133999
1339lss
13409914
1340c5505
1340dude
1341
1342/70
1342825
1344matt
13459
134679
134679852
134689
134695
13479
1347ab
1348
13481112
13487_powhat
13488888
1349660
13496hwy210
134gbz
1351